{
	"entry": [
		{
			"request": {
				"method": "POST",
				"url": "Patient"
			},
			"resource": {
				"identifier": [
					{
						"system": "urn:oid:1.3.6.1.4.1.22812.3.2009316.3",
						"value": "160920144139807"
					}
				],
				"extension": [
					{
						"valueCodeableConcept": {
							"coding": [
								{
									"system": "2.16.840.1.113883.5.1076",
									"code": "1013",
									"display": "Christian (non-Catholic, non-specific)"
								}
							]
						},
						"url": "http://hl7.org/fhir/StructureDefinition/patient-religion"
					},
					{
						"valueAddress": {
							"country": "US",
							"city": "Beaverton",
							"line": [
								"[4444 Home Street]"
							],
							"postalCode": "97867",
							"state": "OR"
						},
						"url": "http://hl7.org/fhir/StructureDefinition/patient-birthPlace"
					},
					{
						"extension": [
							{
								"valueCoding": {
									"system": "2.16.840.1.113883.6.238",
									"code": "2106-3",
									"display": "White"
								},
								"url": "ombCategory"
							},
							{
								"valueString": "European",
								"url": "text"
							},
							{
								"valueCoding": {
									"system": "2.16.840.1.113883.6.238",
									"code": "2108-9",
									"display": "European"
								},
								"url": "detailed"
							}
						],
						"url": "http://hl7.org/fhir/us/core/StructureDefinition/us-core-race"
					},
					{
						"extension": [
							{
								"valueCoding": {
									"system": "2.16.840.1.113883.6.238",
									"code": "2135-2",
									"display": "Hispanic or Latino"
								},
								"url": "ombCategory"
							},
							{
								"valueString": "Hispanic or Latino",
								"url": "text"
							},
							{
								"valueCoding": {
									"system": "2.16.840.1.113883.6.238",
									"code": "20146-9",
									"display": "Spanish Basque"
								},
								"url": "detailed"
							}
						],
						"url": "http://hl7.org/fhir/us/core/StructureDefinition/us-core-ethnicity"
					}
				],
				"address": [
					{
						"city": "Beaverton",
						"use": "home",
						"line": [
							"1357 Amber Drive"
						],
						"postalCode": "97006",
						"state": "OR"
					}
				],
				"gender": "female",
				"birthDate": "1947-05-01",
				"managingOrganization": {
					"reference": "Organization/1.3.6.1.4.1.22812.3.2009316.3::3",
					"display": "Primary Care's Partners Test"
				},
				"meta": {
					"tag": [
						{
							"system": "http://terminology.hl7.org/CodeSystem/v3-ObservationValue",
							"code": "SUBSETTED",
							"display": "Resource encoded in summary mode"
						}
					]
				},
				"contact": [
					{
						"address": {
							"city": "Beaverton",
							"use": "home",
							"line": [
								"123 main street"
							],
							"postalCode": "97867",
							"state": "OR"
						},
						"name": {
							"given": [
								"Boris",
								"Bo"
							],
							"family": "Betterhalf"
						},
						"telecom": [
							{
								"system": "phone",
								"use": "mobile",
								"value": "+1(555)555-2008"
							}
						],
						"relationship": [
							{
								"coding": [
									{
										"system": "urn:oid:2.16.840.1.113883.5.111",
										"code": "FTH",
										"display": "father"
									}
								],
								"text": "father"
							},
							{
								"coding": [
									{
										"system": "http://terminology.hl7.org/CodeSystem/v2-0063",
										"code": "GRD",
										"display": "Guardian"
									}
								],
								"text": "Guardian"
							}
						]
					}
				],
				"name": [
					{
						"given": [
							"Myra"
						],
						"use": "usual",
						"family": "Jones"
					}
				],
				"telecom": [
					{
						"system": "phone",
						"use": "mobile",
						"value": "+1(565)867-5309"
					}
				],
				"id": "fb8a2189-cfbd-42c8-b0e3-a02e45b7723d",
				"communication": [
					{
						"extension": [
							{
								"extension": [
									{
										"valueCoding": {
											"system": "2.16.840.1.113883.5.60",
											"code": "ESP",
											"display": "Expressed spoken"
										},
										"url": "type"
									},
									{
										"valueCoding": {
											"system": "2.16.840.1.113883.5.61",
											"code": "G",
											"display": "Good"
										},
										"url": "level"
									}
								],
								"url": "http://hl7.org/fhir/StructureDefinition/patient-proficiency"
							}
						],
						"language": {
							"coding": [
								{
									"system": "urn:ietf:bcp:47",
									"code": "en"
								}
							]
						},
						"preferred": true
					}
				],
				"maritalStatus": {
					"coding": [
						{
							"system": "urn:oid:2.16.840.1.113883.5.2",
							"code": "M",
							"display": "Married"
						}
					],
					"text": "Married"
				},
				"resourceType": "Patient"
			},
			"fullUrl": "Patient/fb8a2189-cfbd-42c8-b0e3-a02e45b7723d"
		},
		{
			"request": {
				"method": "POST",
				"url": "Practitioner"
			},
			"resource": {
				"identifier": [
					{
						"system": "urn:oid:2.16.840.1.113883.4.6",
						"value": "1234123400"
					}
				],
				"address": [
					{
						"city": "Chicago",
						"use": "home",
						"line": [
							"123 main street"
						],
						"postalCode": "60629",
						"state": "IL"
					}
				],
				"meta": {
					"tag": [
						{
							"system": "http://terminology.hl7.org/CodeSystem/v3-ObservationValue",
							"code": "SUBSETTED",
							"display": "Resource encoded in summary mode"
						}
					]
				},
				"name": [
					{
						"given": [
							"Provider"
						],
						"family": "abc"
					}
				],
				"id": "a1231430-e6a9-45dc-9f3e-1ce26abae495",
				"resourceType": "Practitioner"
			},
			"fullUrl": "Practitioner/a1231430-e6a9-45dc-9f3e-1ce26abae495"
		},
		{
			"request": {
				"method": "POST",
				"url": "Practitioner"
			},
			"resource": {
				"identifier": [
					{
						"system": "urn:oid:2.16.840.1.113883.4.6",
						"value": "99999999214"
					}
				],
				"meta": {
					"tag": [
						{
							"system": "http://terminology.hl7.org/CodeSystem/v3-ObservationValue",
							"code": "SUBSETTED",
							"display": "Resource encoded in summary mode"
						}
					]
				},
				"name": [
					{
						"given": [
							"Henry"
						],
						"family": "SevenJrObs"
					}
				],
				"telecom": [
					{
						"system": "phone",
						"use": "work",
						"value": "555-555-1002"
					}
				],
				"id": "2b7b8d41-25d4-40d3-a93b-72798f51f964",
				"resourceType": "Practitioner"
			},
			"fullUrl": "Practitioner/2b7b8d41-25d4-40d3-a93b-72798f51f964"
		},
		{
			"request": {
				"method": "POST",
				"url": "Practitioner"
			},
			"resource": {
				"identifier": [
					{
						"system": "urn:oid:2.16.840.1.113883.19.5.9999.456",
						"value": "2981824"
					}
				],
				"address": [
					{
						"country": "US",
						"city": "Ann Arbor",
						"line": [
							"1021 Health Drive"
						],
						"postalCode": "99099",
						"state": "MI"
					}
				],
				"meta": {
					"tag": [
						{
							"system": "http://terminology.hl7.org/CodeSystem/v3-ObservationValue",
							"code": "SUBSETTED",
							"display": "Resource encoded in summary mode"
						}
					]
				},
				"name": [
					{
						"given": [
							"Amanda"
						],
						"family": "Assigned"
					}
				],
				"id": "ce61fe6f-67fb-4734-abde-895291b93338",
				"resourceType": "Practitioner"
			},
			"fullUrl": "Practitioner/ce61fe6f-67fb-4734-abde-895291b93338"
		},
		{
			"request": {
				"method": "POST",
				"url": "Provenance"
			},
			"resource": {
				"agent": [
					{
						"type": {
							"coding": [
								{
									"system": "http://terminology.hl7.org/CodeSystem/provenance-participant-type",
									"code": "author",
									"display": "Author"
								}
							],
							"text": "Author"
						}
					},
					{
						"onBehalfOf": {
							"reference": "Organization/1.3.6.1.4.1.22812.3.2009316.3::3",
							"display": "Primary Care's Partners Test"
						},
						"type": {
							"coding": [
								{
									"system": "http://terminology.hl7.org/CodeSystem/provenance-participant-type",
									"code": "author",
									"display": "Author"
								}
							],
							"text": "Author"
						}
					},
					{
						"onBehalfOf": {
							"reference": "Organization/1.3.6.1.4.1.22812.3.2009316.3::3",
							"display": "Primary Care's Partners Test"
						}
					}
				],
				"meta": {
					"tag": [
						{
							"system": "http://terminology.hl7.org/CodeSystem/v3-ObservationValue",
							"code": "SUBSETTED",
							"display": "Resource encoded in summary mode"
						}
					]
				},
				"id": "9e0b220b-8f8c-4743-b55f-cb789b82b8b6",
				"resourceType": "Provenance"
			},
			"fullUrl": "Provenance/9e0b220b-8f8c-4743-b55f-cb789b82b8b6"
		},
		{
			"request": {
				"method": "POST",
				"url": "Organization"
			},
			"resource": {
				"identifier": [
					{
						"system": "urn:oid:1.3.6.1.4.1.22812.3.2009316.3",
						"value": "3"
					}
				],
				"address": [
					{
						"city": "Chicago",
						"use": "home",
						"line": [
							"123 main street"
						],
						"postalCode": "60629",
						"state": "IL"
					}
				],
				"meta": {
					"tag": [
						{
							"system": "http://terminology.hl7.org/CodeSystem/v3-ObservationValue",
							"code": "SUBSETTED",
							"display": "Resource encoded in summary mode"
						}
					]
				},
				"name": "Primary Care's Partners Test",
				"id": "d806cc52-0d2f-4abd-a577-082f282acc43",
				"resourceType": "Organization"
			},
			"fullUrl": "Organization/d806cc52-0d2f-4abd-a577-082f282acc43"
		},
		{
			"request": {
				"method": "POST",
				"url": "Encounter"
			},
			"resource": {
				"identifier": [
					{
						"system": "urn:ietf:rfc:3986",
						"value": "2a620155-9d11-439e-92b3-5d9815ff4de8"
					}
				],
				"period": {
					"start": "2012-08-15T10:00:00-08:00"
				},
				"hospitalization": {
					"origin": {
						"reference": "1.3.6.1.4.1.22812.3.2009316.3::3",
						"display": "Primary Care's Partners Test"
					},
					"destination": {
						"reference": "Organization/1.3.6.1.4.1.22812.3.2009316.3::3",
						"display": "Primary Care's Partners Test"
					}
				},
				"subject": {
					"reference": "Patient/1.3.6.1.4.1.22812.3.2009316.3::160920144139807",
					"display": " Myra Jones"
				},
				"diagnosis": [
					{
						"condition": {
							"reference": "Condition/1.3.6.1.4.1.22812.3.2009316.3.4.1.2.1::545069300001"
						}
					},
					{
						"condition": {
							"reference": "Condition/urn:ietf:rfc:3986::db734647-fc99-424c-a864-7e3cda82e704"
						}
					}
				],
				"type": [
					{
						"coding": [
							{
								"system": "urn:oid:2.16.840.1.113883.6.12",
								"code": "99213",
								"display": "Office/outpatient established low mdm 20-29 min"
							}
						],
						"text": "Office/outpatient established low mdm 20-29 min"
					}
				],
				"participant": [
					{
						"type": [
							{
								"coding": [
									{
										"system": "urn:oid:2.16.840.1.113883.6.101",
										"code": "207R00000X",
										"display": "Internal Medicine"
									}
								],
								"text": "Internal Medicine"
							},
							{
								"coding": [
									{
										"system": "http://terminology.hl7.org/CodeSystem/v3-ParticipationTypehttp://terminology.hl7.org/CodeSystem/v3-ParticipationType",
										"code": "PPR",
										"display": "primary performer"
									}
								],
								"text": "primary performer"
							}
						]
					}
				],
				"meta": {
					"tag": [
						{
							"system": "http://terminology.hl7.org/CodeSystem/v3-ObservationValue",
							"code": "SUBSETTED",
							"display": "Resource encoded in summary mode"
						}
					]
				},
				"serviceProvider": {
					"reference": "Organization/1.3.6.1.4.1.22812.3.2009316.3::3",
					"display": "Primary Care's Partners Test"
				},
				"id": "f52a3249-2a70-4341-83bf-539e43839b50",
				"class": {
					"system": "http://terminology.hl7.org/CodeSystem/v3-ActCode",
					"code": "IMP",
					"display": "inpatient encounter"
				},
				"resourceType": "Encounter",
				"status": "unknown"
			},
			"fullUrl": "Encounter/f52a3249-2a70-4341-83bf-539e43839b50"
		},
		{
			"request": {
				"method": "POST",
				"url": "Condition"
			},
			"resource": {
				"identifier": [
					{
						"system": "urn:oid:1.3.6.1.4.1.22812.3.2009316.3.4.1.2.1",
						"value": "545069300001"
					},
					{
						"system": "urn:oid:1.3.6.1.4.1.22812.3.2009316.3.4.1.2.1",
						"value": "545069300001"
					}
				],
				"note": [
					{
						"text": "Pneumonia"
					}
				],
				"code": {
					"coding": [
						{
							"system": "urn:oid:2.16.840.1.113883.6.96",
							"code": "233604007",
							"display": "Pneumonia"
						},
						{
							"system": "urn:oid:2.16.840.1.113883.6.103",
							"code": "486"
						},
						{
							"system": "urn:oid:2.16.840.1.113883.6.90",
							"code": "J18.9"
						},
						{
							"system": "urn:oid:2.16.840.1.113883.3.247.1.1",
							"code": "87580"
						}
					],
					"text": "Pneumonia"
				},
				"meta": {
					"tag": [
						{
							"system": "http://terminology.hl7.org/CodeSystem/v3-ObservationValue",
							"code": "SUBSETTED",
							"display": "Resource encoded in summary mode"
						}
					]
				},
				"subject": {
					"reference": "Patient/1.3.6.1.4.1.22812.3.2009316.3::160920144139807",
					"display": " Myra Jones"
				},
				"recordedDate": "2010-08-15",
				"id": "a69dd81c-e2a4-4274-b196-b87484278dff",
				"category": [
					{
						"coding": [
							{
								"system": "urn:oid:2.16.840.1.113883.6.96",
								"code": "55607006"
							}
						]
					},
					{
						"coding": [
							{
								"system": "http://terminology.hl7.org/CodeSystem/condition-category",
								"code": "problem-list-item",
								"display": "Problem List Item"
							}
						],
						"text": "Problem List Item"
					}
				],
				"onsetDateTime": "2012-08-06",
				"resourceType": "Condition"
			},
			"fullUrl": "Condition/a69dd81c-e2a4-4274-b196-b87484278dff"
		},
		{
			"request": {
				"method": "POST",
				"url": "Condition"
			},
			"resource": {
				"identifier": [
					{
						"system": "urn:oid:1.3.6.1.4.1.22812.3.2009316.3.4.1.2.1",
						"value": "545077400017"
					},
					{
						"system": "urn:oid:1.3.6.1.4.1.22812.3.2009316.3.4.1.2.1",
						"value": "545077400019"
					}
				],
				"note": [
					{
						"text": "Asthma"
					}
				],
				"code": {
					"coding": [
						{
							"system": "urn:oid:2.16.840.1.113883.6.96",
							"code": "195967001"
						},
						{
							"system": "urn:oid:2.16.840.1.113883.6.103",
							"code": "493.90"
						},
						{
							"system": "urn:oid:2.16.840.1.113883.6.90",
							"code": "J45.909"
						},
						{
							"system": "urn:oid:2.16.840.1.113883.3.247.1.1",
							"code": "94262"
						}
					],
					"text": "Asthma"
				},
				"meta": {
					"tag": [
						{
							"system": "http://terminology.hl7.org/CodeSystem/v3-ObservationValue",
							"code": "SUBSETTED",
							"display": "Resource encoded in summary mode"
						}
					]
				},
				"subject": {
					"reference": "Patient/1.3.6.1.4.1.22812.3.2009316.3::160920144139807",
					"display": " Myra Jones"
				},
				"id": "9075abfa-7089-48b7-a8f2-d629bfc403d8",
				"category": [
					{
						"coding": [
							{
								"system": "urn:oid:2.16.840.1.113883.6.96",
								"code": "55607006"
							}
						]
					},
					{
						"coding": [
							{
								"system": "http://terminology.hl7.org/CodeSystem/condition-category",
								"code": "problem-list-item",
								"display": "Problem List Item"
							}
						],
						"text": "Problem List Item"
					}
				],
				"onsetDateTime": "2010-08-15",
				"resourceType": "Condition"
			},
			"fullUrl": "Condition/9075abfa-7089-48b7-a8f2-d629bfc403d8"
		},
		{
			"request": {
				"method": "POST",
				"url": "Condition"
			},
			"resource": {
				"identifier": [
					{
						"system": "urn:oid:1.3.6.1.4.1.22812.3.99930.3.4.1.3",
						"value": "44"
					}
				],
				"code": {
					"coding": [
						{
							"system": "urn:oid:2.16.840.1.113883.6.96",
							"code": "56018004",
							"display": "wheezing"
						}
					],
					"text": "wheezing"
				},
				"meta": {
					"tag": [
						{
							"system": "http://terminology.hl7.org/CodeSystem/v3-ObservationValue",
							"code": "SUBSETTED",
							"display": "Resource encoded in summary mode"
						}
					]
				},
				"subject": {
					"reference": "Patient/1.3.6.1.4.1.22812.3.2009316.3::160920144139807",
					"display": " Myra Jones"
				},
				"id": "79817875-ea83-4b7d-897c-fb2b6c447615",
				"category": [
					{
						"coding": [
							{
								"system": "urn:oid:2.16.840.1.113883.6.96",
								"code": "55607006",
								"display": "Problem"
							},
							{
								"system": "urn:oid:2.16.840.1.113883.6.1",
								"code": "75326-9",
								"display": "Problem"
							}
						],
						"text": "Problem"
					},
					{
						"coding": [
							{
								"system": "http://terminology.hl7.org/CodeSystem/condition-category",
								"code": "problem-list-item",
								"display": "Problem List Item"
							}
						],
						"text": "Problem List Item"
					}
				],
				"onsetDateTime": "2012-08-15",
				"resourceType": "Condition"
			},
			"fullUrl": "Condition/79817875-ea83-4b7d-897c-fb2b6c447615"
		},
		{
			"request": {
				"method": "POST",
				"url": "Condition"
			},
			"resource": {
				"identifier": [
					{
						"system": "urn:oid:1.3.6.1.4.1.22812.4.111.0.4.1.2.1",
						"value": "10241108"
					}
				],
				"code": {
					"coding": [
						{
							"system": "urn:oid:2.16.840.1.113883.6.96",
							"code": "363746003",
							"display": "Acute pharyngitis"
						},
						{
							"system": "urn:oid:2.16.840.1.113883.6.103",
							"code": "462",
							"display": "Acute pharyngitis"
						},
						{
							"system": "urn:oid:2.16.840.1.113883.6.90",
							"code": "J02.9",
							"display": "Acute pharyngitis"
						}
					],
					"text": "Acute pharyngitis"
				},
				"meta": {
					"tag": [
						{
							"system": "http://terminology.hl7.org/CodeSystem/v3-ObservationValue",
							"code": "SUBSETTED",
							"display": "Resource encoded in summary mode"
						}
					]
				},
				"subject": {
					"reference": "Patient/1.3.6.1.4.1.22812.3.2009316.3::160920144139807",
					"display": " Myra Jones"
				},
				"abatementDateTime": "2014-04-05T23:59:59-05:00",
				"recordedDate": "2014-04-07",
				"id": "5c67f032-5928-47d9-a1bd-53dd08f4c31d",
				"category": [
					{
						"coding": [
							{
								"system": "urn:oid:2.16.840.1.113883.6.96",
								"code": "55607006",
								"display": "Problem"
							},
							{
								"system": "urn:oid:2.16.840.1.113883.6.1",
								"code": "75326-9",
								"display": "Problem"
							}
						],
						"text": "Problem"
					},
					{
						"coding": [
							{
								"system": "http://terminology.hl7.org/CodeSystem/condition-category",
								"code": "problem-list-item",
								"display": "Problem List Item"
							}
						],
						"text": "Problem List Item"
					}
				],
				"onsetDateTime": "2014-04-02",
				"resourceType": "Condition"
			},
			"fullUrl": "Condition/5c67f032-5928-47d9-a1bd-53dd08f4c31d"
		},
		{
			"request": {
				"method": "POST",
				"url": "Condition"
			},
			"resource": {
				"identifier": [
					{
						"system": "urn:oid:1.2.840.114350.1.13.6289.1.7.2.768076",
						"value": "68993"
					},
					{
						"system": "093A5380-00CE-11E6-B4C5-0050568B000B",
						"value": "1.1"
					}
				],
				"note": [
					{
						"text": "problem                            "
					}
				],
				"code": {
					"coding": [
						{
							"system": "urn:oid:2.16.840.1.113883.6.96",
							"code": "445281000124101",
							"display": "Nutrition impaired due to limited access to healthful foods (finding)"
						},
						{
							"system": "urn:oid:2.16.840.1.113883.6.90",
							"code": "Z59.48",
							"display": "Other specified lack of adequate food"
						}
					],
					"text": "Nutrition impaired due to limited access to healthful foods (finding)"
				},
				"meta": {
					"tag": [
						{
							"system": "http://terminology.hl7.org/CodeSystem/v3-ObservationValue",
							"code": "SUBSETTED",
							"display": "Resource encoded in summary mode"
						}
					]
				},
				"subject": {
					"reference": "Patient/1.3.6.1.4.1.22812.3.2009316.3::160920144139807",
					"display": " Myra Jones"
				},
				"id": "000e197e-d433-4adb-a52b-167742a56342",
				"category": [
					{
						"coding": [
							{
								"system": "urn:oid:2.16.840.1.113883.6.96",
								"code": "55607006",
								"display": "Problem"
							},
							{
								"system": "urn:oid:2.16.840.1.113883.6.1",
								"code": "75326-9",
								"display": "Problem"
							}
						],
						"text": "Problem"
					},
					{
						"coding": [
							{
								"system": "http://terminology.hl7.org/CodeSystem/condition-category",
								"code": "problem-list-item",
								"display": "Problem List Item"
							}
						],
						"text": "Problem List Item"
					}
				],
				"onsetDateTime": "2010-09-09",
				"resourceType": "Condition"
			},
			"fullUrl": "Condition/000e197e-d433-4adb-a52b-167742a56342"
		},
		{
			"request": {
				"method": "POST",
				"url": "Condition"
			},
			"resource": {
				"identifier": [
					{
						"system": "urn:ietf:rfc:3986",
						"value": "31f50d78-9870-11ee-b9d1-0242ac120002"
					}
				],
				"code": {
					"coding": [
						{
							"system": "urn:oid:2.16.840.1.113883.6.96",
							"code": "414916001",
							"display": "Obesity"
						}
					],
					"text": "Obesity"
				},
				"meta": {
					"tag": [
						{
							"system": "http://terminology.hl7.org/CodeSystem/v3-ObservationValue",
							"code": "SUBSETTED",
							"display": "Resource encoded in summary mode"
						}
					]
				},
				"subject": {
					"reference": "Patient/1.3.6.1.4.1.22812.3.2009316.3::160920144139807",
					"display": " Myra Jones"
				},
				"id": "98db4136-8750-4358-b58a-741c71aded86",
				"category": [
					{
						"coding": [
							{
								"system": "urn:oid:2.16.840.1.113883.6.96",
								"code": "55607006",
								"display": "Problem"
							},
							{
								"system": "urn:oid:2.16.840.1.113883.6.1",
								"code": "75326-9",
								"display": "Problem"
							}
						],
						"text": "Problem"
					},
					{
						"coding": [
							{
								"system": "http://terminology.hl7.org/CodeSystem/condition-category",
								"code": "problem-list-item",
								"display": "Problem List Item"
							}
						],
						"text": "Problem List Item"
					}
				],
				"onsetDateTime": "2003",
				"resourceType": "Condition"
			},
			"fullUrl": "Condition/98db4136-8750-4358-b58a-741c71aded86"
		},
		{
			"request": {
				"method": "POST",
				"url": "AllergyIntolerance"
			},
			"resource": {
				"identifier": [
					{
						"system": "urn:oid:1.3.6.1.4.1.22812.3.2009316.3.4.10.2",
						"value": "545077400001"
					},
					{
						"system": "urn:oid:1.3.6.1.4.1.22812.3.2009316.3.4.10.2",
						"value": "545077400003"
					}
				],
				"code": {
					"coding": [
						{
							"system": "urn:oid:2.16.840.1.113883.6.88",
							"code": "1191"
						},
						{
							"system": "urn:oid:2.16.840.1.113883.6.96",
							"code": "293586001"
						}
					]
				},
				"reaction": [
					{
						"severity": "severe",
						"note": [
							{
								"text": "Hives"
							}
						],
						"manifestation": [
							{
								"coding": [
									{
										"system": "urn:oid:2.16.840.1.113883.6.96",
										"code": "247472004",
										"display": "Wheal"
									}
								],
								"text": "Wheal"
							}
						],
						"id": "urn:ietf:rfc:3986::d89ce431-e0f1-4f8d-a81f-489b6ed91f09",
						"onset": "2008-05-01"
					}
				],
				"recordedDate": "2014-01-04",
				"criticality": "CRITH",
				"clinicalStatus": {
					"coding": [
						{
							"system": "http://terminology.hl7.org/CodeSystem/allergyintolerance-clinical",
							"code": "active",
							"display": "Active"
						}
					],
					"text": "Active"
				},
				"type": "intolerance",
				"onsetDateTime": "2008-05-01",
				"meta": {
					"tag": [
						{
							"system": "http://terminology.hl7.org/CodeSystem/v3-ObservationValue",
							"code": "SUBSETTED",
							"display": "Resource encoded in summary mode"
						}
					]
				},
				"patient": {
					"reference": "Patient/1.3.6.1.4.1.22812.3.2009316.3::160920144139807",
					"display": " Myra Jones"
				},
				"id": "545077400001",
				"category": [
					"medication"
				],
				"resourceType": "AllergyIntolerance"
			},
			"fullUrl": "AllergyIntolerance/545077400001"
		},
		{
			"request": {
				"method": "POST",
				"url": "AllergyIntolerance"
			},
			"resource": {
				"identifier": [
					{
						"system": "urn:ietf:rfc:3986",
						"value": "55ac1612-2d3f-4084-b687-0997446cabad"
					}
				],
				"code": {
					"coding": [
						{
							"system": "urn:oid:2.16.840.1.113883.6.96",
							"code": "762952008",
							"display": "Peanut"
						}
					],
					"text": "Peanut"
				},
				"meta": {
					"tag": [
						{
							"system": "http://terminology.hl7.org/CodeSystem/v3-ObservationValue",
							"code": "SUBSETTED",
							"display": "Resource encoded in summary mode"
						}
					]
				},
				"patient": {
					"reference": "Patient/1.3.6.1.4.1.22812.3.2009316.3::160920144139807",
					"display": " Myra Jones"
				},
				"recordedDate": "2014-01-04",
				"id": "55ac1612-2d3f-4084-b687-0997446cabad",
				"clinicalStatus": {
					"coding": [
						{
							"system": "http://terminology.hl7.org/CodeSystem/allergyintolerance-clinical",
							"code": "active",
							"display": "Active"
						}
					],
					"text": "Active"
				},
				"type": "allergy",
				"category": [
					"food"
				],
				"onsetDateTime": "2006",
				"resourceType": "AllergyIntolerance"
			},
			"fullUrl": "AllergyIntolerance/55ac1612-2d3f-4084-b687-0997446cabad"
		},
		{
			"request": {
				"method": "POST",
				"url": "AllergyIntolerance"
			},
			"resource": {
				"identifier": [
					{
						"system": "urn:ietf:rfc:3986",
						"value": "55ac1612-2d3f-4084-b687-0997446cabad"
					}
				],
				"code": {
					"coding": [
						{
							"system": "urn:oid:2.16.840.1.113883.6.96",
							"code": "762952008",
							"display": "Peanut"
						}
					],
					"text": "Peanut"
				},
				"meta": {
					"tag": [
						{
							"system": "http://terminology.hl7.org/CodeSystem/v3-ObservationValue",
							"code": "SUBSETTED",
							"display": "Resource encoded in summary mode"
						}
					]
				},
				"patient": {
					"reference": "Patient/1.3.6.1.4.1.22812.3.2009316.3::160920144139807",
					"display": " Myra Jones"
				},
				"id": "55ac1612-2d3f-4084-b687-0997446cabad",
				"clinicalStatus": {
					"coding": [
						{
							"system": "http://terminology.hl7.org/CodeSystem/allergyintolerance-clinical",
							"code": "active",
							"display": "Active"
						}
					],
					"text": "Active"
				},
				"type": "allergy",
				"category": [
					"food"
				],
				"onsetDateTime": "2003",
				"resourceType": "AllergyIntolerance"
			},
			"fullUrl": "AllergyIntolerance/55ac1612-2d3f-4084-b687-0997446cabad"
		},
		{
			"request": {
				"method": "POST",
				"url": "MedicationAdministration"
			},
			"resource": {
				"identifier": [
					{
						"system": "urn:ietf:rfc:3986",
						"value": "cdbd33f0-6cde-11db-9fe1-0800200c9a66"
					}
				],
				"medicationReference": {
					"reference": "/urn:ietf:rfc:3986::2a620155-9d11-439e-92b3-5d9815ff4ee8"
				},
				"dosage": {
					"dose": {
						"value": 1
					},
					"route": {
						"coding": [
							{
								"system": "urn:oid:2.16.840.1.113883.3.26.1.1",
								"code": "C38288",
								"display": "Oral Route of Administration"
							}
						],
						"text": "Oral Route of Administration"
					},
					"method": {
						"coding": [
							{
								"system": "urn:oid:2.16.840.1.113883.3.26.1.1",
								"code": "C48501",
								"display": "Inhalation dosing unit"
							}
						],
						"text": "Inhalation dosing unit"
					},
					"rateQuantity": {
						"unit": "mL/h",
						"value": 200
					}
				},
				"effectivePeriod": {
					"start": "2012-08-06"
				},
				"meta": {
					"tag": [
						{
							"system": "http://terminology.hl7.org/CodeSystem/v3-ObservationValue",
							"code": "SUBSETTED",
							"display": "Resource encoded in summary mode"
						}
					]
				},
				"subject": {
					"reference": "Patient/1.3.6.1.4.1.22812.3.2009316.3::160920144139807",
					"display": " Myra Jones"
				},
				"id": "cdbd33f0-6cde-11db-9fe1-0800200c9a66",
				"reasonCode": [
					{
						"coding": [
							{
								"system": "urn:oid:2.16.840.1.113883.6.96",
								"code": "56018004",
								"display": "wheezing"
							}
						],
						"text": "wheezing"
					}
				],
				"resourceType": "MedicationAdministration",
				"status": "in-progress"
			},
			"fullUrl": "MedicationAdministration/cdbd33f0-6cde-11db-9fe1-0800200c9a66"
		},
		{
			"request": {
				"method": "POST",
				"url": "MedicationAdministration"
			},
			"resource": {
				"identifier": [
					{
						"system": "urn:ietf:rfc:3986",
						"value": "6c844c75-aa34-411c-b7bd-5e4a9f206e29"
					}
				],
				"medicationReference": {
					"reference": "/urn:ietf:rfc:3986::2a620155-9d11-439e-92b3-5d9815ff4ee8"
				},
				"request": {
					"reference": "/urn:ietf:rfc:3986::aba2fc75-1a43-435f-8309-d24e4be5f1cd"
				},
				"meta": {
					"tag": [
						{
							"system": "http://terminology.hl7.org/CodeSystem/v3-ObservationValue",
							"code": "SUBSETTED",
							"display": "Resource encoded in summary mode"
						}
					]
				},
				"subject": {
					"reference": "Patient/1.3.6.1.4.1.22812.3.2009316.3::160920144139807",
					"display": " Myra Jones"
				},
				"id": "6c844c75-aa34-411c-b7bd-5e4a9f206e29",
				"reasonCode": [
					{
						"coding": [
							{
								"system": "urn:oid:2.16.840.1.113883.6.96",
								"code": "363406005",
								"display": "Malignant neoplasm of colon"
							}
						],
						"text": "Malignant neoplasm of colon"
					}
				],
				"resourceType": "MedicationAdministration",
				"status": "in-progress"
			},
			"fullUrl": "MedicationAdministration/6c844c75-aa34-411c-b7bd-5e4a9f206e29"
		},
		{
			"request": {
				"method": "POST",
				"url": "Procedure"
			},
			"resource": {
				"identifier": [
					{
						"system": "urn:oid:1.3.6.1.4.1.22812.3.2009316.3.4.7",
						"value": "545069400001"
					},
					{
						"system": "urn:oid:1.3.6.1.4.1.22812.3.2009316.3.4.7",
						"value": "545069400003"
					}
				],
				"bodySite": [
					{
						"coding": [
							{
								"system": "urn:oid:2.16.840.1.113883.6.96",
								"code": "416550000",
								"display": "Chest and/or abdomen structure"
							}
						],
						"text": "Chest and/or abdomen structure"
					}
				],
				"code": {
					"coding": [
						{
							"system": "urn:oid:2.16.840.1.113883.6.96",
							"code": "416940007",
							"display": "H/O chest x-ray"
						},
						{
							"system": "urn:oid:2.16.840.1.113883.6.103",
							"code": "V15.89"
						},
						{
							"system": "urn:oid:2.16.840.1.113883.6.90",
							"code": "Z92.89"
						},
						{
							"system": "urn:oid:2.16.840.1.113883.3.247.1.1",
							"code": "2782946"
						}
					],
					"text": "H/O chest x-ray"
				},
				"meta": {
					"tag": [
						{
							"system": "http://terminology.hl7.org/CodeSystem/v3-ObservationValue",
							"code": "SUBSETTED",
							"display": "Resource encoded in summary mode"
						}
					]
				},
				"subject": {
					"reference": "Patient/1.3.6.1.4.1.22812.3.2009316.3::160920144139807",
					"display": " Myra Jones"
				},
				"id": "5e03a5db-26ab-45da-915f-b501c509caec",
				"reasonCode": [
					{
						"coding": [
							{
								"system": "urn:oid:2.16.840.1.113883.6.96",
								"code": "56018004",
								"display": "Wheezing"
							}
						],
						"text": "Wheezing"
					}
				],
				"performedDateTime": "2012-08-16",
				"resourceType": "Procedure",
				"status": "completed"
			},
			"fullUrl": "Procedure/5e03a5db-26ab-45da-915f-b501c509caec"
		},
		{
			"request": {
				"method": "POST",
				"url": "Procedure"
			},
			"resource": {
				"identifier": [
					{
						"system": "urn:ietf:rfc:3986",
						"value": "d5b614bd-01ce-410d-8726-e1fd01dcc72a"
					}
				],
				"bodySite": [
					{
						"coding": [
							{
								"system": "urn:oid:2.16.840.1.113883.6.96",
								"code": "71854001",
								"display": "Colon structure"
							}
						],
						"text": "Colon structure"
					}
				],
				"code": {
					"coding": [
						{
							"system": "urn:oid:2.16.840.1.113883.6.96",
							"code": "73761001",
							"display": "Colonoscopy"
						}
					],
					"text": "Colonoscopy"
				},
				"meta": {
					"tag": [
						{
							"system": "http://terminology.hl7.org/CodeSystem/v3-ObservationValue",
							"code": "SUBSETTED",
							"display": "Resource encoded in summary mode"
						}
					]
				},
				"subject": {
					"reference": "Patient/1.3.6.1.4.1.22812.3.2009316.3::160920144139807",
					"display": " Myra Jones"
				},
				"id": "43084ff7-d589-419f-bff4-36900ba6cc44",
				"performedDateTime": "2003-05-12",
				"resourceType": "Procedure",
				"status": "completed"
			},
			"fullUrl": "Procedure/43084ff7-d589-419f-bff4-36900ba6cc44"
		},
		{
			"request": {
				"method": "POST",
				"url": "Procedure"
			},
			"resource": {
				"identifier": [
					{
						"system": "urn:oid:1.3.6.1.4.1.22812.3.2009316.3.4.7",
						"value": "545069400001"
					},
					{
						"system": "urn:oid:1.3.6.1.4.1.22812.3.2009316.3.4.7",
						"value": "545069400003"
					}
				],
				"code": {
					"coding": [
						{
							"system": "urn:oid:2.16.840.1.113883.6.96",
							"code": "252195001",
							"display": "Exercise stress test"
						}
					],
					"text": "Exercise stress test"
				},
				"meta": {
					"tag": [
						{
							"system": "http://terminology.hl7.org/CodeSystem/v3-ObservationValue",
							"code": "SUBSETTED",
							"display": "Resource encoded in summary mode"
						}
					]
				},
				"subject": {
					"reference": "Patient/1.3.6.1.4.1.22812.3.2009316.3::160920144139807",
					"display": " Myra Jones"
				},
				"id": "08af365f-b211-44a9-bf8f-1c552a35921c",
				"performedDateTime": "2012-08-06",
				"resourceType": "Procedure",
				"status": "completed"
			},
			"fullUrl": "Procedure/08af365f-b211-44a9-bf8f-1c552a35921c"
		},
		{
			"request": {
				"method": "POST",
				"url": "Procedure"
			},
			"resource": {
				"identifier": [
					{
						"system": "urn:ietf:rfc:3986",
						"value": "64af26d5-88ef-4169-ba16-c6ef16a1824f"
					}
				],
				"code": {
					"coding": [
						{
							"system": "urn:oid:2.16.840.1.113883.6.96",
							"code": "385767005",
							"display": "Meals on wheels provision education"
						}
					],
					"text": "Meals on wheels provision education"
				},
				"meta": {
					"tag": [
						{
							"system": "http://terminology.hl7.org/CodeSystem/v3-ObservationValue",
							"code": "SUBSETTED",
							"display": "Resource encoded in summary mode"
						}
					]
				},
				"subject": {
					"reference": "Patient/1.3.6.1.4.1.22812.3.2009316.3::160920144139807",
					"display": " Myra Jones"
				},
				"id": "05b171e6-142e-432b-8505-bf057949ebfc",
				"performedPeriod": {
					"start": "2010-09-09",
					"end": "2010-12-31"
				},
				"resourceType": "Procedure",
				"status": "completed"
			},
			"fullUrl": "Procedure/05b171e6-142e-432b-8505-bf057949ebfc"
		},
		{
			"request": {
				"method": "POST",
				"url": "Immunization"
			},
			"resource": {
				"identifier": [
					{
						"system": "urn:ietf:rfc:3986",
						"value": "e6f1ba43-c0ed-4b9b-9f12-f435d8ad8f92"
					}
				],
				"note": [
					{
						"text": "Influenza Virus Vaccine 1 8\/15\/2010 Completed"
					}
				],
				"performer": [
					{
						"function": {
							"coding": [
								{
									"system": "http://terminology.hl7.org/CodeSystem/v2-0443",
									"code": "AP",
									"display": "Administering Provider"
								}
							],
							"text": "Administering Provider"
						}
					}
				],
				"reaction": [
					{
						"date": "2008-05-01"
					}
				],
				"doseQuantity": {
					"unit": "ug",
					"value": 60
				},
				"lotNumber": "1",
				"recorded": "2010-08-15",
				"site": {
					"coding": [
						{
							"system": "urn:oid:2.16.840.1.113883.6.96",
							"code": "700022004",
							"display": "Muscle and/or tendon structure of upper limb"
						}
					],
					"text": "Muscle and/or tendon structure of upper limb"
				},
				"route": {
					"coding": [
						{
							"system": "urn:oid:2.16.840.1.113883.3.26.1.1",
							"code": "C28161",
							"display": "Intramuscular Route of Administration"
						}
					],
					"text": "Intramuscular Route of Administration"
				},
				"meta": {
					"tag": [
						{
							"system": "http://terminology.hl7.org/CodeSystem/v3-ObservationValue",
							"code": "SUBSETTED",
							"display": "Resource encoded in summary mode"
						}
					]
				},
				"patient": {
					"reference": "Patient/1.3.6.1.4.1.22812.3.2009316.3::160920144139807",
					"display": " Myra Jones"
				},
				"protocolApplied": [
					{
						"doseNumberPositiveInt": 1
					}
				],
				"occurrenceDateTime": "2010-08-15",
				"id": "c69248c8-722c-4970-a405-251ea32ca0b5",
				"reasonCode": [
					{
						"coding": [
							{
								"system": "urn:oid:2.16.840.1.113883.6.96",
								"code": "195967001",
								"display": "asthma"
							}
						],
						"text": "asthma"
					}
				],
				"vaccineCode": {
					"coding": [
						{
							"system": "urn:oid:2.16.840.1.113883.12.292",
							"code": "88",
							"display": "Influenza virus vaccine"
						},
						{
							"system": "urn:oid:2.16.840.1.113883.6.69",
							"code": "49281-0422-50",
							"display": "Influenza vaccine"
						}
					],
					"text": "Influenza virus vaccine"
				},
				"resourceType": "Immunization",
				"status": "completed"
			},
			"fullUrl": "Immunization/c69248c8-722c-4970-a405-251ea32ca0b5"
		},
		{
			"request": {
				"method": "POST",
				"url": "Immunization"
			},
			"resource": {
				"identifier": [
					{
						"system": "urn:ietf:rfc:3986",
						"value": "8d5942f9-5413-4486-af89-dcc5603dbec7"
					}
				],
				"note": [
					{
						"text": "Influenza Virus Vaccine 1 11\/15\/2015 Noo given (patient objection)"
					}
				],
				"meta": {
					"tag": [
						{
							"system": "http://terminology.hl7.org/CodeSystem/v3-ObservationValue",
							"code": "SUBSETTED",
							"display": "Resource encoded in summary mode"
						}
					]
				},
				"patient": {
					"reference": "Patient/1.3.6.1.4.1.22812.3.2009316.3::160920144139807",
					"display": " Myra Jones"
				},
				"occurrenceDateTime": "2015-11-15",
				"id": "f8bcd7cd-44a0-48a6-b6f0-d8f71ecd74f8",
				"lotNumber": "2",
				"vaccineCode": {
					"coding": [
						{
							"system": "urn:oid:2.16.840.1.113883.12.292",
							"code": "43",
							"display": "hepatitis B vaccine, adult dosage"
						}
					],
					"text": "hepatitis B vaccine, adult dosage"
				},
				"resourceType": "Immunization",
				"status": "completed"
			},
			"fullUrl": "Immunization/f8bcd7cd-44a0-48a6-b6f0-d8f71ecd74f8"
		},
		{
			"request": {
				"method": "POST",
				"url": "Immunization"
			},
			"resource": {
				"reaction": [
					{
						"detail": {
							"reference": "Observation/2.16.840.1.113883.19::123456789"
						}
					}
				],
				"meta": {
					"tag": [
						{
							"system": "http://terminology.hl7.org/CodeSystem/v3-ObservationValue",
							"code": "SUBSETTED",
							"display": "Resource encoded in summary mode"
						}
					]
				},
				"id": "bdf9fdfd-bb2a-4740-ad81-7d48cea69ee7",
				"resourceType": "Immunization"
			},
			"fullUrl": "Immunization/bdf9fdfd-bb2a-4740-ad81-7d48cea69ee7"
		},
		{
			"request": {
				"method": "POST",
				"url": "Observation"
			},
			"resource": {
				"valueCodeableConcept": {
					"coding": [
						{
							"system": "urn:oid:2.16.840.1.113883.6.96",
							"code": "449868002",
							"display": "Current every day smoker"
						}
					],
					"text": "Current every day smoker"
				},
				"identifier": [
					{
						"system": "urn:oid:2.16.840.1.113883.19",
						"value": "123456789"
					}
				],
				"note": [
					{
						"text": "Status: Current every day smoker Detail: Moderate smoker (10-19 cigs\/day) Started: 1992 Stopped: Recorded June 6, 2014 10:32am"
					}
				],
				"code": {
					"coding": [
						{
							"system": "urn:oid:2.16.840.1.113883.6.1",
							"code": "72166-2",
							"display": "Tobacco smoking status NHIS"
						}
					],
					"text": "Tobacco smoking status NHIS"
				},
				"effectiveDateTime": "2014-06-06T10:32:00-05:00",
				"meta": {
					"tag": [
						{
							"system": "http://terminology.hl7.org/CodeSystem/v3-ObservationValue",
							"code": "SUBSETTED",
							"display": "Resource encoded in summary mode"
						}
					]
				},
				"subject": {
					"reference": "Patient/1.3.6.1.4.1.22812.3.2009316.3::160920144139807",
					"display": " Myra Jones"
				},
				"id": "26c2abbb-608b-4dbd-8cdd-4bdc5acba8b6",
				"category": [
					{
						"coding": [
							{
								"system": "http://terminology.hl7.org/CodeSystem/observation-category",
								"code": "social-history",
								"display": "Social History"
							}
						],
						"text": "Social History"
					}
				],
				"resourceType": "Observation",
				"status": "final"
			},
			"fullUrl": "Observation/26c2abbb-608b-4dbd-8cdd-4bdc5acba8b6"
		},
		{
			"request": {
				"method": "POST",
				"url": "DiagnosticReport"
			},
			"resource": {
				"identifier": [
					{
						"system": "urn:oid:1.3.6.1.4.1.22812.20.1.1.4.5",
						"value": "1"
					}
				],
				"code": {
					"coding": [
						{
							"system": "urn:oid:2.16.840.1.113883.6.1",
							"code": "24357-6"
						}
					],
					"text": "Urinanalysis macro (dipstick) panel"
				},
				"effectivePeriod": {
					"start": "2015-06-22",
					"end": "2015-06-22"
				},
				"meta": {
					"tag": [
						{
							"system": "http://terminology.hl7.org/CodeSystem/v3-ObservationValue",
							"code": "SUBSETTED",
							"display": "Resource encoded in summary mode"
						}
					]
				},
				"subject": {
					"reference": "Patient/1.3.6.1.4.1.22812.3.2009316.3::160920144139807",
					"display": " Myra Jones"
				},
				"id": "6581bcbb-51db-4dca-8f2d-b3e36ee5a909",
				"resourceType": "DiagnosticReport",
				"status": "final"
			},
			"fullUrl": "DiagnosticReport/6581bcbb-51db-4dca-8f2d-b3e36ee5a909"
		},
		{
			"request": {
				"method": "POST",
				"url": "Observation"
			},
			"resource": {
				"identifier": [
					{
						"system": "urn:oid:2.16.840.1.113883.3.42.126.100001.19",
						"value": "216881330410151584"
					}
				],
				"note": [
					{
						"text": "80 \/min"
					}
				],
				"code": {
					"coding": [
						{
							"system": "urn:oid:2.16.840.1.113883.6.1",
							"code": "8867-4",
							"display": "HEART RATE"
						}
					],
					"text": "HEART RATE"
				},
				"effectiveDateTime": "2014-05-20T19:36:05-06:00",
				"meta": {
					"tag": [
						{
							"system": "http://terminology.hl7.org/CodeSystem/v3-ObservationValue",
							"code": "SUBSETTED",
							"display": "Resource encoded in summary mode"
						}
					]
				},
				"subject": {
					"reference": "Patient/1.3.6.1.4.1.22812.3.2009316.3::160920144139807",
					"display": " Myra Jones"
				},
				"id": "4bf3fc70-854e-4080-8821-7701b22d0ab2",
				"category": [
					{
						"coding": [
							{
								"system": "http://terminology.hl7.org/CodeSystem/observation-category",
								"code": "vital-signs",
								"display": "Vital Signs"
							}
						],
						"text": "Vital Signs"
					}
				],
				"resourceType": "Observation",
				"status": "final",
				"valueQuantity": {
					"unit": "/min",
					"value": 80
				}
			},
			"fullUrl": "Observation/4bf3fc70-854e-4080-8821-7701b22d0ab2"
		},
		{
			"request": {
				"method": "POST",
				"url": "MedicationDispense"
			},
			"resource": {
				"identifier": [
					{
						"system": "urn:oid:1.2.3.4.56789.1",
						"value": "cb734647-fc99-424c-a864-7e3cda82e704"
					}
				],
				"quantity": {
					"value": 3
				},
				"whenPrepared": "2012-08-06T16:03:00",
				"receiver": [
					{
						"reference": "Patient/1.3.6.1.4.1.22812.3.2009316.3::160920144139807",
						"display": " Myra Jones"
					}
				],
				"meta": {
					"tag": [
						{
							"system": "http://terminology.hl7.org/CodeSystem/v3-ObservationValue",
							"code": "SUBSETTED",
							"display": "Resource encoded in summary mode"
						}
					]
				},
				"subject": {
					"reference": "Patient/1.3.6.1.4.1.22812.3.2009316.3::160920144139807",
					"display": " Myra Jones"
				},
				"whenHandedOver": "2012-08-06T16:03:00",
				"id": "cb734647-fc99-424c-a864-7e3cda82e704",
				"medicationCodeableConcept": {
					"coding": [
						{
							"system": "urn:oid:2.16.840.1.113883.6.88",
							"code": "1190220",
							"display": "ACTUAT albuterol 0.1 MG/ACTUAT / ipratropium bromide 0.02 MG/ACTUAT Inhalation Spray"
						}
					],
					"text": "ACTUAT albuterol 0.1 MG/ACTUAT / ipratropium bromide 0.02 MG/ACTUAT Inhalation Spray"
				},
				"resourceType": "MedicationDispense",
				"status": "unknown"
			},
			"fullUrl": "MedicationDispense/cb734647-fc99-424c-a864-7e3cda82e704"
		},
		{
			"request": {
				"method": "POST",
				"url": "Medication"
			},
			"resource": {
				"code": {
					"coding": [
						{
							"system": "urn:oid:2.16.840.1.113883.6.88",
							"code": "1190220",
							"display": "ACTUAT albuterol 0.1 MG/ACTUAT / ipratropium bromide 0.02 MG/ACTUAT Inhalation Spray"
						}
					],
					"text": "ACTUAT albuterol 0.1 MG/ACTUAT / ipratropium bromide 0.02 MG/ACTUAT Inhalation Spray"
				},
				"meta": {
					"tag": [
						{
							"system": "http://terminology.hl7.org/CodeSystem/v3-ObservationValue",
							"code": "SUBSETTED",
							"display": "Resource encoded in summary mode"
						}
					]
				},
				"id": "2d0d9ef8-e0ea-4652-85ca-e72eaca76de7",
				"resourceType": "Medication"
			},
			"fullUrl": "Medication/2d0d9ef8-e0ea-4652-85ca-e72eaca76de7"
		},
		{
			"request": {
				"method": "POST",
				"url": "MedicationRequest"
			},
			"resource": {
				"authoredOn": "2012-08-01",
				"meta": {
					"tag": [
						{
							"system": "http://terminology.hl7.org/CodeSystem/v3-ObservationValue",
							"code": "SUBSETTED",
							"display": "Resource encoded in summary mode"
						}
					]
				},
				"subject": {
					"reference": "Patient/1.3.6.1.4.1.22812.3.2009316.3::160920144139807",
					"display": " Myra Jones"
				},
				"id": "aba2fc75-1a43-435f-8309-d24e4be5f1cd",
				"medicationCodeableConcept": {
					"coding": [
						{
							"system": "urn:oid:2.16.840.1.113883.6.88",
							"code": "1190220",
							"display": "ACTUAT albuterol 0.1 MG/ACTUAT / ipratropium bromide 0.02 MG/ACTUAT Inhalation Spray"
						}
					],
					"text": "ACTUAT albuterol 0.1 MG/ACTUAT / ipratropium bromide 0.02 MG/ACTUAT Inhalation Spray"
				},
				"intent": "filler-order",
				"resourceType": "MedicationRequest",
				"status": "unknown"
			},
			"fullUrl": "MedicationRequest/aba2fc75-1a43-435f-8309-d24e4be5f1cd"
		},
		{
			"request": {
				"method": "POST",
				"url": "Medication"
			},
			"resource": {
				"identifier": [
					{
						"system": "urn:ietf:rfc:3986",
						"value": "2a620155-9d11-439e-92b3-5d9815ff4ee8"
					}
				],
				"code": {
					"coding": [
						{
							"system": "urn:oid:2.16.840.1.113883.6.88",
							"code": "1190220",
							"display": "ACTUAT albuterol 0.1 MG/ACTUAT / ipratropium bromide 0.02 MG/ACTUAT Inhalation Spray"
						}
					],
					"text": "ACTUAT albuterol 0.1 MG/ACTUAT / ipratropium bromide 0.02 MG/ACTUAT Inhalation Spray"
				},
				"meta": {
					"tag": [
						{
							"system": "http://terminology.hl7.org/CodeSystem/v3-ObservationValue",
							"code": "SUBSETTED",
							"display": "Resource encoded in summary mode"
						}
					]
				},
				"id": "2a620155-9d11-439e-92b3-5d9815ff4ee8",
				"resourceType": "Medication"
			},
			"fullUrl": "Medication/2a620155-9d11-439e-92b3-5d9815ff4ee8"
		},
		{
			"request": {
				"method": "POST",
				"url": "Observation"
			},
			"resource": {
				"identifier": [
					{
						"system": "urn:oid:1.3.6.1.4.1.22812.20.1.1.4.5",
						"value": "13"
					}
				],
				"note": [
					{
						"text": "Specific gravity of Urine by Test strip 1.015 Range: 1.005 - 1.030"
					}
				],
				"code": {
					"coding": [
						{
							"system": "urn:oid:2.16.840.1.113883.6.1",
							"code": "5811-5",
							"display": "Specific gravity of Urine by Test strip"
						}
					],
					"text": "Specific gravity of Urine by Test strip"
				},
				"effectiveDateTime": "2015-06-22",
				"meta": {
					"tag": [
						{
							"system": "http://terminology.hl7.org/CodeSystem/v3-ObservationValue",
							"code": "SUBSETTED",
							"display": "Resource encoded in summary mode"
						}
					]
				},
				"subject": {
					"reference": "Patient/1.3.6.1.4.1.22812.3.2009316.3::160920144139807",
					"display": " Myra Jones"
				},
				"id": "367c3aa8-1e3f-43cb-9fc0-14575fba7c64",
				"category": [
					{
						"coding": [
							{
								"system": "http://terminology.hl7.org/CodeSystem/observation-category",
								"code": "laboratory",
								"display": "Laboratory"
							}
						],
						"text": "Laboratory"
					}
				],
				"resourceType": "Observation",
				"status": "final",
				"valueQuantity": {
					"value": 1.015
				}
			},
			"fullUrl": "Observation/367c3aa8-1e3f-43cb-9fc0-14575fba7c64"
		},
		{
			"request": {
				"method": "POST",
				"url": "Condition"
			},
			"resource": {
				"identifier": [
					{
						"system": "urn:ietf:rfc:3986",
						"value": "db734647-fc99-424c-a864-7e3cda82e704"
					}
				],
				"code": {
					"coding": [
						{
							"system": "urn:oid:2.16.840.1.113883.6.96",
							"code": "64109004",
							"display": "Costal Chondritis"
						}
					],
					"text": "Costal Chondritis"
				},
				"meta": {
					"tag": [
						{
							"system": "http://terminology.hl7.org/CodeSystem/v3-ObservationValue",
							"code": "SUBSETTED",
							"display": "Resource encoded in summary mode"
						}
					]
				},
				"subject": {
					"reference": "Patient/1.3.6.1.4.1.22812.3.2009316.3::160920144139807",
					"display": " Myra Jones"
				},
				"id": "67b33887-61f0-444e-ac2e-0028b5cff2d8",
				"category": [
					{
						"coding": [
							{
								"system": "http://terminology.hl7.org/CodeSystem/condition-category",
								"code": "encounter-diagnosis",
								"display": "Encounter Diagnosis"
							}
						],
						"text": "Encounter Diagnosis"
					}
				],
				"onsetDateTime": "2012-08-15",
				"resourceType": "Condition"
			},
			"fullUrl": "Condition/67b33887-61f0-444e-ac2e-0028b5cff2d8"
		},
		{
			"request": {
				"method": "POST",
				"url": "Condition"
			},
			"resource": {
				"identifier": [
					{
						"system": "urn:oid:1.3.6.1.4.1.22812.3.2009316.3.4.1.2.1",
						"value": "545069300001"
					},
					{
						"system": "urn:oid:1.3.6.1.4.1.22812.3.2009316.3.4.1.2.1",
						"value": "545069300001"
					},
					{
						"system": "urn:oid:1.3.6.1.4.1.22812.3.2009316.3.4.1.2.1",
						"value": "545077400017"
					},
					{
						"system": "urn:oid:1.3.6.1.4.1.22812.3.2009316.3.4.1.2.1",
						"value": "545077400019"
					},
					{
						"system": "urn:oid:1.3.6.1.4.1.22812.3.99930.3.4.1.3",
						"value": "44"
					},
					{
						"system": "urn:oid:1.3.6.1.4.1.22812.4.111.0.4.1.2.1",
						"value": "10241108"
					},
					{
						"system": "urn:oid:1.2.840.114350.1.13.6289.1.7.2.768076",
						"value": "68993"
					},
					{
						"system": "093A5380-00CE-11E6-B4C5-0050568B000B",
						"value": "1.1"
					},
					{
						"system": "urn:ietf:rfc:3986",
						"value": "31f50d78-9870-11ee-b9d1-0242ac120002"
					},
					{
						"system": "urn:ietf:rfc:3986",
						"value": "db734647-fc99-424c-a864-7e3cda82e704"
					}
				],
				"note": [
					{
						"text": "Pneumonia"
					},
					{
						"text": "Asthma"
					},
					{
						"text": "problem                            "
					}
				],
				"code": {
					"coding": [
						{
							"system": "urn:oid:2.16.840.1.113883.6.96",
							"code": "233604007",
							"display": "Pneumonia"
						},
						{
							"system": "urn:oid:2.16.840.1.113883.6.103",
							"code": "486"
						},
						{
							"system": "urn:oid:2.16.840.1.113883.6.90",
							"code": "J18.9"
						},
						{
							"system": "urn:oid:2.16.840.1.113883.3.247.1.1",
							"code": "87580"
						}
					],
					"text": "Pneumonia"
				},
				"meta": {
					"tag": [
						{
							"system": "http://terminology.hl7.org/CodeSystem/v3-ObservationValue",
							"code": "SUBSETTED",
							"display": "Resource encoded in summary mode"
						}
					]
				},
				"abatementDateTime": "2014-04-05T23:59:59-05:00",
				"recordedDate": "2010-08-15",
				"id": "e78d649d-e962-418f-8bd4-a9c4c3e4ba38",
				"category": [
					{
						"coding": [
							{
								"system": "urn:oid:2.16.840.1.113883.6.96",
								"code": "55607006"
							}
						]
					},
					{
						"coding": [
							{
								"system": "http://terminology.hl7.org/CodeSystem/condition-category",
								"code": "problem-list-item",
								"display": "Problem List Item"
							}
						],
						"text": "Problem List Item"
					},
					{
						"coding": [
							{
								"system": "urn:oid:2.16.840.1.113883.6.96",
								"code": "55607006"
							}
						]
					},
					{
						"coding": [
							{
								"system": "http://terminology.hl7.org/CodeSystem/condition-category",
								"code": "problem-list-item",
								"display": "Problem List Item"
							}
						],
						"text": "Problem List Item"
					},
					{
						"coding": [
							{
								"system": "urn:oid:2.16.840.1.113883.6.96",
								"code": "55607006",
								"display": "Problem"
							},
							{
								"system": "urn:oid:2.16.840.1.113883.6.1",
								"code": "75326-9",
								"display": "Problem"
							}
						],
						"text": "Problem"
					},
					{
						"coding": [
							{
								"system": "http://terminology.hl7.org/CodeSystem/condition-category",
								"code": "problem-list-item",
								"display": "Problem List Item"
							}
						],
						"text": "Problem List Item"
					},
					{
						"coding": [
							{
								"system": "urn:oid:2.16.840.1.113883.6.96",
								"code": "55607006",
								"display": "Problem"
							},
							{
								"system": "urn:oid:2.16.840.1.113883.6.1",
								"code": "75326-9",
								"display": "Problem"
							}
						],
						"text": "Problem"
					},
					{
						"coding": [
							{
								"system": "http://terminology.hl7.org/CodeSystem/condition-category",
								"code": "problem-list-item",
								"display": "Problem List Item"
							}
						],
						"text": "Problem List Item"
					},
					{
						"coding": [
							{
								"system": "urn:oid:2.16.840.1.113883.6.96",
								"code": "55607006",
								"display": "Problem"
							},
							{
								"system": "urn:oid:2.16.840.1.113883.6.1",
								"code": "75326-9",
								"display": "Problem"
							}
						],
						"text": "Problem"
					},
					{
						"coding": [
							{
								"system": "http://terminology.hl7.org/CodeSystem/condition-category",
								"code": "problem-list-item",
								"display": "Problem List Item"
							}
						],
						"text": "Problem List Item"
					},
					{
						"coding": [
							{
								"system": "urn:oid:2.16.840.1.113883.6.96",
								"code": "55607006",
								"display": "Problem"
							},
							{
								"system": "urn:oid:2.16.840.1.113883.6.1",
								"code": "75326-9",
								"display": "Problem"
							}
						],
						"text": "Problem"
					},
					{
						"coding": [
							{
								"system": "http://terminology.hl7.org/CodeSystem/condition-category",
								"code": "problem-list-item",
								"display": "Problem List Item"
							}
						],
						"text": "Problem List Item"
					},
					{
						"coding": [
							{
								"system": "http://terminology.hl7.org/CodeSystem/condition-category",
								"code": "encounter-diagnosis",
								"display": "Encounter Diagnosis"
							}
						],
						"text": "Encounter Diagnosis"
					}
				],
				"onsetDateTime": "2012-08-06",
				"resourceType": "Condition"
			},
			"fullUrl": "Condition/e78d649d-e962-418f-8bd4-a9c4c3e4ba38"
		},
		{
			"request": {
				"method": "POST",
				"url": "MedicationDispense"
			},
			"resource": {
				"identifier": [
					{
						"system": "urn:oid:1.2.3.4.56789.1",
						"value": "cb734647-fc99-424c-a864-7e3cda82e704"
					},
					{
						"system": "urn:oid:1.2.3.4.56789.1",
						"value": "cb734647-fc99-424c-a864-7e3cda82e704"
					},
					{
						"system": "urn:oid:1.2.3.4.56789.1",
						"value": "cb734647-fc99-424c-a864-7e3cda82e704"
					},
					{
						"system": "urn:oid:1.2.3.4.56789.1",
						"value": "cb734647-fc99-424c-a864-7e3cda82e704"
					}
				],
				"medicationReference": {
					"reference": "Medication/urn:ietf:rfc:3986::2a620155-9d11-439e-92b3-5d9815ff4ee8"
				},
				"quantity": {
					"value": 1
				},
				"whenPrepared": "2012-08-06T16:03:00",
				"meta": {
					"tag": [
						{
							"system": "http://terminology.hl7.org/CodeSystem/v3-ObservationValue",
							"code": "SUBSETTED",
							"display": "Resource encoded in summary mode"
						}
					]
				},
				"whenHandedOver": "2012-08-06T16:03:00",
				"id": "cb734647-fc99-424c-a864-7e3cda82e704",
				"authorizingPrescription": [
					{
						"reference": "MedicationRequest/urn:ietf:rfc:3986::aba2fc75-1a43-435f-8309-d24e4be5f1cd"
					}
				],
				"resourceType": "MedicationDispense",
				"status": "unknown"
			},
			"fullUrl": "MedicationDispense/cb734647-fc99-424c-a864-7e3cda82e704"
		},
		{
			"request": {
				"method": "POST",
				"url": "MedicationRequest"
			},
			"resource": {
				"medicationReference": {
					"reference": "Medication/urn:ietf:rfc:3986::2a620155-9d11-439e-92b3-5d9815ff4ee8"
				},
				"authoredOn": "2012-08-01",
				"meta": {
					"tag": [
						{
							"system": "http://terminology.hl7.org/CodeSystem/v3-ObservationValue",
							"code": "SUBSETTED",
							"display": "Resource encoded in summary mode"
						}
					]
				},
				"id": "aba2fc75-1a43-435f-8309-d24e4be5f1cd",
				"intent": "filler-order",
				"resourceType": "MedicationRequest",
				"status": "unknown"
			},
			"fullUrl": "MedicationRequest/aba2fc75-1a43-435f-8309-d24e4be5f1cd"
		},
		{
			"request": {
				"method": "POST",
				"url": "MedicationAdministration"
			},
			"resource": {
				"identifier": [
					{
						"system": "urn:ietf:rfc:3986",
						"value": "6c844c75-aa34-411c-b7bd-5e4a9f206e29"
					}
				],
				"meta": {
					"tag": [
						{
							"system": "http://terminology.hl7.org/CodeSystem/v3-ObservationValue",
							"code": "SUBSETTED",
							"display": "Resource encoded in summary mode"
						}
					]
				},
				"id": "6c844c75-aa34-411c-b7bd-5e4a9f206e29",
				"medicationCodeableConcept": {
					"coding": [
						{
							"system": "urn:oid:2.16.840.1.113883.6.88",
							"code": "1190220",
							"display": "ACTUAT albuterol 0.1 MG/ACTUAT / ipratropium bromide 0.02 MG/ACTUAT Inhalation Spray"
						}
					],
					"text": "ACTUAT albuterol 0.1 MG/ACTUAT / ipratropium bromide 0.02 MG/ACTUAT Inhalation Spray"
				},
				"resourceType": "MedicationAdministration"
			},
			"fullUrl": "MedicationAdministration/6c844c75-aa34-411c-b7bd-5e4a9f206e29"
		},
		{
			"request": {
				"method": "POST",
				"url": "Observation"
			},
			"resource": {
				"identifier": [
					{
						"system": "urn:oid:2.16.840.1.113883.19",
						"value": "123456789"
					},
					{
						"system": "urn:oid:1.3.6.1.4.1.22812.20.1.1.4.5",
						"value": "13"
					},
					{
						"system": "urn:oid:2.16.840.1.113883.3.42.126.100001.19",
						"value": "216881330410151584"
					}
				],
				"note": [
					{
						"text": "Status: Current every day smoker Detail: Moderate smoker (10-19 cigs\/day) Started: 1992 Stopped: Recorded June 6, 2014 10:32am"
					},
					{
						"text": "Specific gravity of Urine by Test strip 1.015 Range: 1.005 - 1.030"
					},
					{
						"text": "80 \/min"
					}
				],
				"code": {
					"coding": [
						{
							"system": "urn:oid:2.16.840.1.113883.6.1",
							"code": "72166-2",
							"display": "Tobacco smoking status NHIS"
						}
					],
					"text": "Tobacco smoking status NHIS"
				},
				"effectiveDateTime": "2014-06-06T10:32:00-05:00",
				"meta": {
					"tag": [
						{
							"system": "http://terminology.hl7.org/CodeSystem/v3-ObservationValue",
							"code": "SUBSETTED",
							"display": "Resource encoded in summary mode"
						}
					]
				},
				"id": "e8ffd4b6-94e5-4f6c-9398-5cb26526f002",
				"category": [
					{
						"coding": [
							{
								"system": "http://terminology.hl7.org/CodeSystem/observation-category",
								"code": "social-history",
								"display": "Social History"
							}
						],
						"text": "Social History"
					},
					{
						"coding": [
							{
								"system": "http://terminology.hl7.org/CodeSystem/observation-category",
								"code": "laboratory",
								"display": "Laboratory"
							}
						],
						"text": "Laboratory"
					},
					{
						"coding": [
							{
								"system": "http://terminology.hl7.org/CodeSystem/observation-category",
								"code": "vital-signs",
								"display": "Vital Signs"
							}
						],
						"text": "Vital Signs"
					}
				],
				"resourceType": "Observation",
				"status": "final",
				"valueQuantity": {
					"value": 1.015
				}
			},
			"fullUrl": "Observation/e8ffd4b6-94e5-4f6c-9398-5cb26526f002"
		}
	],
	"meta": {
		"tag": [
			{
				"system": "http://terminology.hl7.org/CodeSystem/v3-ObservationValue",
				"code": "SUBSETTED",
				"display": "Resource encoded in summary mode"
			}
		]
	},
	"type": "batch",
	"resourceType": "Bundle"
}